File: XRD.csv
"time","open","close","high","low","volume","turnover"
"2023-03-31 21:55","0.0405","0.04057","0.04058","0.04049","11419.5","462.942"
"2023-04-01 00:15","0.04062","0.04065","0.04065","0.0406","7856.59","319.197"
"2023-04-01 02:35","0.04108","0.04108","0.04117","0.04107","26423.2","1087.18"
"2023-04-01 04:55","0.0416","0.0416","0.04168","0.04159","7775.68","323.729"
"2023-04-01 07:15","0.04175","0.04182","0.04183","0.04175","6468.53","270.297"
"2023-04-01 09:35","0.04169","0.04176","0.04178","0.04167","14021.7","584.864"
"2023-04-01 11:55","0.04203","0.04162","0.04203","0.04162","19522.475","816.185"
"2023-04-01 14:15","0.04203","0.04193","0.04206","0.04193","12788","537.146"
"2023-04-01 16:35","0.04242","0.04238","0.04243","0.04234","6051.13","256.509"
"2023-04-01 18:55","0.04175","0.04182","0.04182","0.04175","7258.89","303.295"
"2023-04-01 21:15","0.04255","0.04256","0.04257","0.04249","7799.06","331.696"
"2023-04-01 23:35","0.04296","0.04298","0.04298","0.04287","7657.04","328.648"
"2023-04-02 01:55","0.04305","0.04297","0.04307","0.04297","7911.91","340.4"
"2023-04-02 04:15","0.04306","0.04314","0.04314","0.04303","6284.05","270.726"
"2023-04-02 06:35","0.04313","0.04332","0.04351","0.04313","48283.1","2091.06"
"2023-04-02 08:55","0.04307","0.04309","0.04331","0.04304","119971.245","5184.22"
"2023-04-02 11:15","0.04295","0.04312","0.04321","0.04293","131804","5682.79"
"2023-04-02 13:35","0.04347","0.04352","0.04352","0.0434","15338.8","666.639"
"2023-04-02 15:55","0.04287","0.04287","0.04287","0.0428","6385.3","273.588"
"2023-04-02 18:15","0.04241","0.04239","0.04244","0.04238","38301.9","1623.97"
"2023-04-02 20:35","0.04177","0.04172","0.0418","0.04172","13778.6","575.514"
"2023-04-02 22:55","0.04173","0.04172","0.04181","0.04172","34780.9","1453.28"
"2023-04-03 01:15","0.04207","0.04197","0.04208","0.04197","13709.5","576.05"
"2023-04-03 03:35","0.04209","0.04202","0.0421","0.04195","8334.29","350.291"
"2023-04-03 05:55","0.04281","0.0428","0.04281","0.0428","3270.98","140.025"
"2023-04-03 08:15","0.04262","0.04266","0.04269","0.04262","23412","998.882"
"2023-04-03 10:35","0.04282","0.04275","0.04282","0.04275","7766.11","332.238"
"2023-04-03 12:55","0.04257","0.04266","0.04269","0.04256","27816.735","1186.21"
"2023-04-03 15:15","0.04257","0.04255","0.04257","0.04255","4517.65","192.3"
"2023-04-03 17:35","0.0426","0.0426","0.0426","0.0426","0","0"
"2023-04-03 19:55","0.04258","0.04269","0.0427","0.04257","30188.9","1287.85"
"2023-04-03 22:15","0.04271","0.04279","0.04282","0.04265","50185.3","2145.42"
"2023-04-04 00:35","0.04213","0.04222","0.04222","0.0421","33009.9","1391.27"
"2023-04-04 02:55","0.04232","0.04232","0.04245","0.04231","34360.4","1457.14"
"2023-04-04 05:15","0.04232","0.04232","0.04237","0.0423","27256.8","1154.33"
"2023-04-04 07:35","0.04262","0.04256","0.04262","0.04255","10277.3","437.713"
"2023-04-04 09:55","0.04318","0.04308","0.04318","0.04307","11451.6","494.079"
"2023-04-04 12:15","0.04373","0.04384","0.04386","0.04373","8391.85","367.536"
"2023-04-04 14:35","0.04314","0.04314","0.04316","0.04305","9952.04","429.064"
"2023-04-04 16:55","0.04316","0.04312","0.04323","0.04308","21426.2","925.295"
"2023-04-04 19:15","0.04486","0.04504","0.04528","0.04486","120797","5450.41"
"2023-04-04 21:35","0.04512","0.04519","0.04521","0.04511","7608.71","343.518"
"2023-04-04 23:55","0.0446","0.04469","0.04469","0.04453","54005.4","2411.04"
"2023-04-05 02:15","0.04585","0.04596","0.04596","0.04584","16141.3","740.971"
"2023-04-05 04:35","0.04613","0.04618","0.04618","0.04607","9084.64","419.023"
"2023-04-05 06:55","0.04731","0.04736","0.04739","0.04727","27222.5","1288.7"
"2023-04-05 09:15","0.04789","0.04782","0.04792","0.04782","6753.58","323.248"
"2023-04-05 11:35","0.04598","0.04629","0.04629","0.04597","72205.6","3328.1"
"2023-04-05 13:55","0.04495","0.04511","0.04517","0.04495","12979.9","585.359"
"2023-04-05 16:15","0.04372","0.04365","0.04372","0.04354","108389","4726.39"
"2023-04-05 18:35","0.0443","0.04431","0.04431","0.04421","36546.8","1618.07"
"2023-04-05 20:55","0.04491","0.04493","0.04498","0.04489","8415.37","378.27"
"2023-04-05 23:15","0.0449","0.0449","0.04496","0.04488","8255.04","370.858"
"2023-04-06 01:35","0.04516","0.04522","0.04522","0.04515","6998.97","316.291"
"2023-04-30 22:55","0.10285","0.10285","0.103","0.10281","3330.11","342.696"
"2023-05-01 01:15","0.10139","0.1014","0.10164","0.10135","22191.4","2251.04"
"2023-05-01 03:35","0.1009","0.10089","0.1009","0.10075","3891.71","392.289"
"2023-05-01 05:55","0.10049","0.10015","0.10063","0.1","139628","13971.8"
"2023-05-01 08:15","0.10011","0.10022","0.10031","0.1","36278.7","3632.04"
"2023-05-01 10:35","0.10124","0.10104","0.10126","0.10098","10007.6","1011.54"
"2023-05-01 12:55","0.09617","0.09607","0.09638","0.0957","93359.6","8965.74"
"2023-05-01 15:15","0.09963","0.1","0.1","0.09912","126760","12642.3"
"2023-05-01 17:35","0.09702","0.09686","0.09721","0.09631","112536","10885.3"
"2023-05-01 19:55","0.09935","0.10091","0.10121","0.09926","112577","11284.4"
"2023-05-01 22:15","0.1006","0.0998","0.10064","0.0998","78998.1","7921.05"
"2023-05-02 00:35","0.1005","0.10051","0.10075","0.10021","45038.2","4524.18"
"2023-05-02 02:55","0.09633","0.09633","0.09662","0.09622","37495.7","3616.45"
"2023-05-02 05:15","0.09611","0.09604","0.0963","0.09604","31076.387","2985.34"
"2023-05-02 07:35","0.09685","0.09693","0.097","0.09679","12081.196","1170.19"
"2023-05-02 09:55","0.09629","0.09659","0.09695","0.09628","48672.994","4696.24"
"2023-05-02 12:15","0.09435","0.09409","0.09439","0.094","56302.7","5299.5"
"2023-05-02 14:35","0.09574","0.09586","0.09609","0.09563","60563.4","5808.29"
"2023-05-02 16:55","0.09301","0.0929","0.09323","0.09273","69001.6","6416"
"2023-05-02 19:15","0.0921","0.09209","0.09231","0.09209","9965.45","918.229"
"2023-05-02 21:35","0.09135","0.09147","0.09152","0.09132","7382.89","674.9"
"2023-05-02 23:55","0.0923","0.09207","0.0923","0.09197","11142.6","1026.45"
"2023-05-03 02:15","0.0913","0.09138","0.09139","0.0913","3990.59","364.523"
"2023-05-03 04:35","0.09117","0.09117","0.09127","0.09116","7130.64","650.156"
"2023-05-03 06:55","0.09132","0.0912","0.09156","0.09117","46288","4228.04"
"2023-05-03 09:15","0.09224","0.09222","0.09238","0.09222","20383.7","1880.26"
"2023-05-03 11:35","0.08983","0.08963","0.0899","0.08955","4099.69","368.069"
"2023-05-03 13:55","0.08776","0.08744","0.08776","0.08735","27673.7","2422.36"
"2023-05-03 16:15","0.08129","0.08153","0.0818","0.0811","74721.3","6093.71"
"2023-05-03 18:35","0.08441","0.084","0.08464","0.08384","29060.4","2445.75"
"2023-05-03 20:55","0.08311","0.0833","0.0833","0.08311","18237.7","1518.23"
"2023-05-03 23:15","0.09034","0.09045","0.0905","0.09034","10405.2","940.78"
"2023-05-04 01:35","0.08894","0.08897","0.08905","0.08889","3847.51","342.227"
"2023-05-04 03:55","0.0893","0.0893","0.0893","0.08925","14498.3","1294.13"
"2023-05-04 06:15","0.08501","0.08495","0.08508","0.08492","4819.23","409.63"
"2023-05-04 08:35","0.08628","0.08628","0.0863","0.08623","6502.5","560.954"
"2023-05-04 10:55","0.08625","0.08645","0.08651","0.08623","32519.3","2809.44"
"2023-05-04 13:15","0.08495","0.08488","0.08499","0.0844","42153.7","3568.86"
"2023-05-04 15:35","0.08683","0.08704","0.08705","0.08682","4108.04","357.136"
"2023-05-04 17:55","0.085","0.08487","0.08504","0.0848","12353.8","1047.92"
"2023-05-04 20:15","0.08548","0.08548","0.08553","0.08548","4533.23","387.58"
"2023-05-04 22:35","0.08465","0.08439","0.0847","0.08435","26302.9","2222.94"
"2023-05-05 00:55","0.08312","0.08305","0.08324","0.08305","4123.19","342.729"
"2023-05-05 03:15","0.08511","0.08545","0.08545","0.08507","22541.3","1921.18"
"2023-05-05 05:35","0.08334","0.083","0.08334","0.083","15433.2","1283.65"
"2023-05-05 07:55","0.08391","0.0842","0.0842","0.08376","32012.2","2688.46"
"2023-05-05 10:15","0.08515","0.08516","0.08523","0.08501","12594.5","1072.34"
"2023-05-05 12:35","0.08234","0.08206","0.08234","0.08206","11037.6","906.835"
"2023-05-05 14:55","0.08001","0.08003","0.08014","0.08","31687.877","2535.15"
"2023-05-05 17:15","0.08224","0.08231","0.08247","0.08218","11725.2","964.87"
"2023-05-05 19:35","0.08145","0.08163","0.08172","0.0813","14025.4","1143.05"
"2023-05-05 21:55","0.07813","0.07816","0.07836","0.07812","4964.19","388.427"
"2023-05-06 00:15","0.07761","0.07748","0.0779","0.07747","9552.6","741.847"
"2023-05-06 02:35","0.07704","0.07702","0.0772","0.077","27189.8","2095.16"
"2023-05-30 23:55","0.07003","0.07003","0.07006","0.07003","7657.07","536.269"
"2023-05-31 02:15","0.06956","0.0696","0.06961","0.06951","53475.2","3718.94"
"2023-05-31 04:35","0.06962","0.06968","0.06975","0.06962","5261.26","366.487"
"2023-05-31 06:55","0.06949","0.06948","0.06954","0.06948","5745.85","399.36"
"2023-05-31 09:15","0.06829","0.06817","0.0683","0.06811","26808.9","1827.48"
"2023-05-31 11:35","0.0677","0.06775","0.06775","0.06765","7059.4","477.908"
"2023-05-31 13:55","0.06748","0.0674","0.06749","0.0674","8996.66","606.912"
"2023-05-31 16:15","0.06679","0.06679","0.06687","0.06671","12231.1","816.735"
"2023-05-31 18:35","0.06657","0.06662","0.06671","0.06656","6491.47","432.484"
"2023-05-31 20:55","0.06642","0.06638","0.06646","0.06633","24298.5","1613.07"
"2023-05-31 23:15","0.06629","0.06627","0.06633","0.0662","13050.7","864.528"
"2023-06-01 01:35","0.0656","0.06568","0.06569","0.06559","5003.02","328.391"
"2023-06-01 03:55","0.06516","0.0651","0.06523","0.06506","16336.6","1064.1"
"2023-06-01 06:15","0.06506","0.06505","0.06513","0.06493","25735.3","1673.53"
"2023-06-01 08:35","0.06525","0.06527","0.06529","0.06524","4618.821","301.442"
"2023-06-01 10:55","0.06605","0.06604","0.06607","0.06577","38355.6","2530.2"
"2023-06-01 13:15","0.06674","0.06698","0.06702","0.06667","74882.2","5006.64"
"2023-06-01 15:35","0.06669","0.06671","0.06676","0.06668","5510.724","367.672"
"2023-06-01 17:55","0.06669","0.06671","0.06677","0.06668","6675.65","445.339"
"2023-06-01 20:15","0.0671","0.06708","0.06716","0.06702","5197.87","348.696"
"2023-06-01 22:35","0.06762","0.06762","0.06768","0.06762","4327.01","292.663"
"2023-06-02 00:55","0.06784","0.06784","0.06787","0.0678","8638.98","585.965"
"2023-06-02 03:15","0.06763","0.0676","0.06764","0.06757","4859.08","328.477"
"2023-06-02 05:35","0.06806","0.06811","0.06813","0.06802","6651.02","452.702"
"2023-06-02 07:55","0.06868","0.0687","0.06875","0.06868","4477.14","307.652"
"2023-06-02 10:15","0.06831","0.06831","0.06835","0.0683","5049.79","345.001"
"2023-06-02 12:35","0.06849","0.06844","0.06858","0.06844","6632.29","454.412"
"2023-06-02 14:55","0.06856","0.06847","0.06857","0.06847","6576.84","450.647"
"2023-06-02 17:15","0.06897","0.069","0.06906","0.06896","4890.13","337.383"
"2023-06-02 19:35","0.07104","0.07112","0.07119","0.07099","14522.9","1031.91"
"2023-06-02 21:55","0.07236","0.07236","0.07238","0.0723","4726.2","341.908"
"2023-06-03 00:15","0.07209","0.07209","0.07211","0.07207","4021.02","289.87"
"2023-06-03 02:35","0.07053","0.07068","0.07068","0.07048","18294.3","1290.85"
"2023-06-03 04:55","0.07073","0.07089","0.07089","0.07073","8998.26","637.039"
"2023-06-03 07:15","0.06949","0.06951","0.06951","0.06939","4596.19","319.218"
"2023-06-03 09:35","0.06896","0.06898","0.06901","0.06894","4882.11","336.674"
"2023-06-03 11:55","0.06784","0.06792","0.06812","0.06781","22551.3","1532.24"
"2023-06-03 14:15","0.06748","0.06749","0.06753","0.06745","4688.89","316.417"
"2023-06-03 16:35","0.06707","0.06722","0.0673","0.06704","5178.04","347.598"
"2023-06-03 18:55","0.06718","0.06709","0.06718","0.06709","4706.74","315.941"
"2023-06-03 21:15","0.06745","0.06745","0.06745","0.06745","1874.16","126.412"
"2023-06-03 23:35","0.06656","0.06656","0.06658","0.06647","5031.86","334.74"
"2023-06-04 01:55","0.06637","0.06637","0.06637","0.06635","4451.81","295.421"
"2023-06-04 04:15","0.06624","0.06619","0.06625","0.06619","4944.85","327.446"
"2023-06-04 06:35","0.06647","0.0666","0.0666","0.06647","4584.01","304.936"
"2023-06-04 08:55","0.06743","0.06734","0.06748","0.06729","5749.76","387.444"
"2023-06-04 11:15","0.0682","0.06822","0.06823","0.0682","6171.34","420.954"
"2023-06-04 13:35","0.06741","0.06738","0.06745","0.06738","7811.36","526.45"
"2023-06-04 15:55","0.06754","0.0675","0.06761","0.06746","7633.496","515.392"
"2023-06-04 18:15","0.06757","0.0676","0.06763","0.06752","5223.18","352.95"
"2023-06-04 20:35","0.06769","0.06737","0.06776","0.06737","42779.1","2888.96"
"2023-06-04 22:55","0.06735","0.06741","0.06743","0.06733","4911.536","330.929"
"2023-06-05 01:15","0.06707","0.06715","0.06718","0.06706","13354.9","896.761"
"2023-06-29 22:35","0.06593","0.06597","0.06597","0.06591","7310.31","482"
"2023-06-30 00:55","0.06554","0.06584","0.06594","0.06554","29180.4","1920.79"
"2023-06-30 03:15","0.06241","0.06257","0.06257","0.06238","11001.4","687.176"
"2023-06-30 05:35","0.06486","0.06495","0.06496","0.06485","8537.33","554.127"
"2023-06-30 07:55","0.06451","0.06472","0.06472","0.06448","43771.6","2828.83"
"2023-06-30 10:15","0.06385","0.06379","0.06386","0.06374","9398.041","599.438"
"2023-06-30 12:35","0.06004","0.05957","0.06019","0.05928","791989","47331.5"
"2023-06-30 14:55","0.05915","0.05914","0.05919","0.05905","29101.2","1720.55"
"2023-06-30 17:15","0.06089","0.06115","0.06138","0.06089","35212.2","2151.61"
"2023-06-30 19:35","0.06015","0.06017","0.06019","0.0601","44200.3","2658.34"
"2023-06-30 21:55","0.06338","0.06306","0.06343","0.06265","86384.3","5447.69"
"2023-07-01 00:15","0.06277","0.06277","0.06289","0.0627","10051.745","631.071"
"2023-07-01 02:35","0.06196","0.06189","0.06198","0.06187","7781.66","481.889"
"2023-07-01 04:55","0.06326","0.06331","0.06338","0.06305","60680.5","3832.98"
"2023-07-01 07:15","0.06346","0.06348","0.06348","0.06346","4923.13","312.471"
"2023-07-01 09:35","0.06429","0.0643","0.0645","0.06428","11506.7","740.157"
"2023-07-01 11:55","0.06484","0.06494","0.06496","0.06483","5280.36","342.56"
"2023-07-01 14:15","0.06441","0.06413","0.06443","0.06413","80181.1","5145.67"
"2023-07-01 16:35","0.0633","0.06335","0.06344","0.0633","4694.01","297.297"
"2023-07-01 18:55","0.06207","0.06196","0.06216","0.06196","44588.7","2766.39"
"2023-07-01 21:15","0.06248","0.06247","0.0625","0.06238","6285.35","392.527"
"2023-07-01 23:35","0.06248","0.06237","0.06254","0.06232","45343.4","2827.87"
"2023-07-02 01:55","0.06286","0.06283","0.06292","0.06274","12213.6","767.05"
"2023-07-02 04:15","0.06276","0.06264","0.06284","0.06264","7545.65","473.316"
"2023-07-02 06:35","0.06313","0.06313","0.06325","0.06306","25482.4","1609.86"
"2023-07-02 08:55","0.0628","0.06286","0.06291","0.06275","6700.2","420.971"
"2023-07-02 11:15","0.06289","0.06285","0.06292","0.0628","15450.4","971.17"
"2023-07-02 13:35","0.06268","0.06272","0.06282","0.06268","15458.8","970.381"
"2023-07-02 15:55","0.06267","0.06267","0.0628","0.06267","4349.58","272.843"
"2023-07-02 18:15","0.06272","0.06269","0.06273","0.06269","7435.44","466.241"
"2023-07-02 20:35","0.06269","0.06249","0.06269","0.06249","7240.42","453.438"
"2023-07-02 22:55","0.0643","0.06436","0.06469","0.0643","34161.6","2206.55"
"2023-07-03 01:15","0.06375","0.06367","0.06384","0.06367","6901.25","440.023"
"2023-07-03 03:35","0.06321","0.06311","0.06321","0.06295","8419.02","531.234"
"2023-07-03 05:55","0.06304","0.06302","0.06309","0.06293","5163.11","325.362"
"2023-07-03 08:15","0.06251","0.06275","0.06295","0.06251","137623.778","8648.12"
"2023-07-03 10:35","0.06239","0.06235","0.06245","0.06233","5191.17","323.752"
"2023-07-03 12:55","0.06272","0.06261","0.06273","0.06256","9431.29","590.685"
"2023-07-03 15:15","0.06299","0.06299","0.06304","0.06298","6335.02","399.128"
"2023-07-03 17:35","0.06419","0.06431","0.06434","0.06413","15666.6","1005.94"
"2023-07-03 19:55","0.06433","0.06429","0.06441","0.06416","22312.5","1434.19"
"2023-07-03 22:15","0.06386","0.06374","0.06393","0.06374","5681.31","362.487"
"2023-07-04 00:35","0.06373","0.06373","0.06378","0.06366","5128.64","326.688"
"2023-07-04 02:55","0.06372","0.06375","0.06376","0.06366","5757.46","366.728"
"2023-07-04 05:15","0.06379","0.06397","0.06403","0.06376","21855.9","1396.21"
"2023-07-04 07:35","0.06367","0.06367","0.06379","0.0636","11312.9","720.926"
"2023-07-04 09:55","0.06292","0.06312","0.06312","0.06291","8118.94","511.723"
"2023-07-04 12:15","0.06129","0.06111","0.06129","0.06111","7506.35","459.291"
"2023-07-04 14:35","0.06098","0.0613","0.06133","0.06096","67438.1","4123.96"
"2023-07-04 16:55","0.06102","0.06104","0.06109","0.06097","12616.7","769.876"
"2023-07-04 19:15","0.06141","0.06128","0.06143","0.06128","4903.57","301.012"
"2023-07-04 21:35","0.06224","0.06248","0.06261","0.06224","13545.2","846.011"
"2023-07-04 23:55","0.06181","0.06188","0.06192","0.06175","4648.17","287.348"
"2023-07-05 02:15","0.06178","0.06171","0.06184","0.06171","5794.96","357.9"
"2023-07-29 23:35","0.05616","0.05621","0.05621","0.05616","1439.17","80.8672"
"2023-07-30 01:55","0.05614","0.05612","0.05621","0.05612","6650.37","373.358"
"2023-07-30 04:15","0.05608","0.05608","0.05608","0.05608","0","0"
"2023-07-30 06:35","0.05613","0.05613","0.05613","0.05613","0","0"
"2023-07-30 08:55","0.05612","0.05612","0.05612","0.05612","0","0"
"2023-07-30 11:15","0.05598","0.05598","0.05598","0.05598","0","0"
"2023-07-30 13:35","0.056","0.05599","0.05601","0.05599","1439.92","80.6289"
"2023-07-30 15:55","0.05615","0.05614","0.05615","0.05614","2494.53","140.056"
"2023-07-30 18:15","0.05626","0.05626","0.05626","0.05626","152.6683","8.58912"
"2023-07-30 20:35","0.05586","0.05588","0.05588","0.05586","2907.1","162.438"
"2023-07-30 22:55","0.05598","0.05598","0.05604","0.05598","3320.79","185.901"
"2023-07-31 01:15","0.05626","0.05624","0.0563","0.05618","6440.42","362.001"
"2023-07-31 03:35","0.05644","0.05644","0.05644","0.05644","0","0"
"2023-07-31 05:55","0.05609","0.05596","0.05609","0.05596","6720.15","376.282"
"2023-07-31 08:15","0.05594","0.05597","0.05597","0.05593","3905.56","218.503"
"2023-07-31 10:35","0.05592","0.05597","0.05605","0.05592","14372.4","804.446"
"2023-07-31 12:55","0.056","0.056","0.056","0.056","0","0"
"2023-07-31 15:15","0.055","0.05498","0.055","0.05498","6767.89","372.107"
"2023-07-31 17:35","0.05527","0.05527","0.0553","0.0552","3546.02","195.967"
"2023-07-31 19:55","0.05521","0.05508","0.05521","0.05508","3573.41","197.045"
"2023-07-31 22:15","0.05514","0.05517","0.05517","0.05514","2821.75","155.641"
"2023-08-01 00:35","0.05516","0.05516","0.0552","0.05516","3037.87","167.582"
"2023-08-01 02:55","0.05502","0.05502","0.05502","0.05502","252.2512","13.8789"
"2023-08-01 05:15","0.05548","0.05558","0.05559","0.05548","4211.17","233.786"
"2023-08-01 07:35","0.05542","0.05542","0.05542","0.05542","0","0"
"2023-08-01 09:55","0.05495","0.05495","0.05495","0.05495","110.0897","6.04943"
"2023-08-01 12:15","0.05499","0.05489","0.05499","0.05489","30806.5","1691.57"
"2023-08-01 14:35","0.05506","0.05501","0.05506","0.05501","1863.43","102.527"
"2023-08-01 16:55","0.05496","0.05499","0.05499","0.05496","6650.44","365.582"
"2023-08-01 19:15","0.05512","0.05512","0.05518","0.05501","32585.3","1794.9"
"2023-08-01 21:35","0.0551","0.05509","0.0551","0.05509","2358.254","129.924"
"2023-08-01 23:55","0.05542","0.05569","0.05575","0.05542","204777","11392.6"
"2023-08-02 02:15","0.05492","0.05492","0.05492","0.05492","0","0"
"2023-08-02 04:35","0.05493","0.05493","0.05493","0.05493","0","0"
"2023-08-02 06:55","0.05489","0.05493","0.05493","0.05489","5982.28","328.492"
"2023-08-02 09:15","0.05489","0.05536","0.0556","0.05485","185621","10245.8"
"2023-08-02 11:35","0.05509","0.05508","0.05514","0.05506","14540.002","801.033"
"2023-08-02 13:55","0.05496","0.05489","0.05497","0.05485","20392.3","1120.1"
"2023-08-02 16:15","0.05341","0.05335","0.05345","0.05329","89596","4782.07"
"2023-08-02 18:35","0.0532","0.05318","0.05327","0.05311","73960.3","3934.94"
"2023-08-02 20:55","0.05269","0.05255","0.05275","0.05252","67175.8","3535.98"
"2023-08-02 23:15","0.05244","0.05243","0.05256","0.0524","33904.6","1779.25"
"2023-08-03 01:35","0.05247","0.0525","0.05253","0.0524","47218.4","2474.64"
"2023-08-03 03:55","0.05245","0.05251","0.05254","0.05245","4333.92","227.466"
"2023-08-03 06:15","0.0531","0.05319","0.05331","0.0531","26791.7","1425.6"
"2023-08-03 08:35","0.05296","0.05282","0.05298","0.05282","79170.6","4189.03"
"2023-08-03 10:55","0.05258","0.05256","0.0526","0.05253","3482.31","183.075"
"2023-08-03 13:15","0.05297","0.05293","0.05298","0.05292","5146.31","272.488"
"2023-08-03 15:35","0.05322","0.05328","0.05336","0.05321","6578.14","350.476"
"2023-08-03 17:55","0.05317","0.05317","0.05327","0.05317","7930.77","422.099"
"2023-08-03 20:15","0.05388","0.05387","0.05388","0.05387","810.2631","43.6519"
"2023-08-03 22:35","0.05418","0.05425","0.0543","0.05416","11779","638.79"
"2023-08-04 00:55","0.05383","0.0539","0.05392","0.05383","3969.963","213.852"
"2023-08-28 22:15","0.05241","0.05243","0.05243","0.05241","10453.2","547.959"
"2023-08-29 00:35","0.05243","0.05243","0.05243","0.05243","190.7304","9.99999"
"2023-08-29 02:55","0.05276","0.05276","0.05276","0.05276","408","21.52608"
"2023-08-29 05:15","0.05272","0.05272","0.05272","0.05272","0","0"
"2023-08-29 07:35","0.05257","0.05257","0.05257","0.05257","1682.946","88.4725"
"2023-08-29 09:55","0.05219","0.0522","0.0522","0.05219","1365.43","71.2705"
"2023-08-29 12:15","0.05221","0.05192","0.05223","0.0516","685573","35560.1"
"2023-08-29 14:35","0.05405","0.05411","0.05445","0.05405","39145.2","2123.64"
"2023-08-29 16:55","0.05372","0.0536","0.05373","0.05345","27393.4","1466.83"
"2023-08-29 19:15","0.05426","0.05426","0.05427","0.05426","2998.41","162.702"
"2023-08-29 21:35","0.05395","0.05397","0.05401","0.0539","5503.45","296.937"
"2023-08-29 23:55","0.05391","0.05396","0.05396","0.05391","3620.46","195.24"
"2023-08-30 02:15","0.05359","0.05361","0.05362","0.05359","2615.77","140.223"
"2023-08-30 04:35","0.05331","0.05331","0.05332","0.05331","4375.15","233.249"
"2023-08-30 06:55","0.05326","0.05327","0.05327","0.05326","3806.41","202.764"
"2023-08-30 09:15","0.05346","0.05344","0.05346","0.05343","6829.19","364.954"
"2023-08-30 11:35","0.05337","0.05328","0.05337","0.05327","19277.2","1027.76"
"2023-08-30 13:55","0.05376","0.05372","0.05376","0.05372","4270.91","229.544"
"2023-08-30 16:15","0.0534","0.05341","0.05347","0.0534","7589.15","405.484"
"2023-08-30 18:35","0.05319","0.05321","0.05323","0.05318","5077.59","270.119"
"2023-08-30 20:55","0.05277","0.05277","0.05279","0.05277","7090.525","374.178"
"2023-08-30 23:15","0.05275","0.0528","0.0528","0.05275","12878.6","679.825"
"2023-08-31 01:35","0.05291","0.05288","0.05291","0.05288","4840.86","256.041"
"2023-08-31 03:55","0.0529","0.0529","0.0529","0.05287","7154.22","378.409"
"2023-08-31 06:15","0.05287","0.05295","0.05302","0.05287","11868.8","628.446"
"2023-08-31 08:35","0.05287","0.05287","0.05287","0.05287","3577.66","189.151"
"2023-08-31 10:55","0.05287","0.05287","0.05287","0.05286","4661.06","246.418"
"2023-08-31 13:15","0.05291","0.05289","0.05291","0.05288","4378.16","231.579"
"2023-08-31 15:35","0.0528","0.05283","0.0529","0.0528","5439.86","287.347"
"2023-08-31 17:55","0.05268","0.05273","0.05276","0.05266","42314","2231.93"
"2023-08-31 20:15","0.05249","0.05248","0.05249","0.05247","4794.47","251.605"
"2023-08-31 22:35","0.053","0.053","0.053","0.05298","4339.46","229.939"
"2023-09-01 00:55","0.05249","0.05255","0.05256","0.05248","6909.899","362.958"
"2023-09-01 03:15","0.05245","0.05245","0.05247","0.05243","3488.75","182.98"
"2023-09-01 05:35","0.05237","0.05237","0.05237","0.05237","4996","261.641"
"2023-09-01 07:55","0.05225","0.05222","0.05225","0.05222","9707.35","507.011"
"2023-09-01 10:15","0.05232","0.05232","0.05233","0.05232","4674.713","244.605"
"2023-09-01 12:35","0.05234","0.05234","0.05234","0.05234","0","0"
"2023-09-01 14:55","0.05225","0.05227","0.0523","0.05225","5083.32","265.699"
"2023-09-01 17:15","0.05237","0.05237","0.05239","0.05237","8640.69","452.561"
"2023-09-01 19:35","0.05255","0.05253","0.05255","0.05253","4931.71","259.148"
"2023-09-01 21:55","0.05261","0.05261","0.05262","0.05253","6159.73","323.954"
"2023-09-02 00:15","0.05215","0.05214","0.05218","0.05214","5485.87","286.123"
"2023-09-02 02:35","0.05203","0.05202","0.0521","0.05198","13652.1","710.44"
"2023-09-02 04:55","0.05176","0.05179","0.05182","0.05174","12296.4","636.82"
"2023-09-02 07:15","0.05185","0.05191","0.05193","0.05185","5780.68","300.087"
"2023-09-02 09:35","0.05153","0.0515","0.05153","0.05147","4524.98","233.053"
"2023-09-02 11:55","0.05153","0.05154","0.05166","0.05151","42128.3","2173.43"
"2023-09-02 14:15","0.05164","0.05161","0.05164","0.05161","6123.61","316.136"
"2023-09-02 16:35","0.05187","0.05185","0.05187","0.05184","3847.91","199.525"
"2023-09-02 18:55","0.05198","0.05198","0.05199","0.05196","5154.68","267.951"
"2023-09-02 21:15","0.05202","0.05207","0.05207","0.05202","4934.19","256.729"
"2023-09-02 23:35","0.05196","0.05197","0.05199","0.05195","4394.15","228.365"
"2023-09-03 01:55","0.05191","0.05187","0.05191","0.05182","16702.8","865.814"
"2023-09-27 23:15","0.06235","0.06252","0.06253","0.06231","18249.8","1139.88"
"2023-09-28 01:35","0.06331","0.06359","0.06382","0.06331","53898.493","3429.46"
"2023-09-28 03:55","0.06237","0.06244","0.06245","0.06237","4719.8","294.543"
"2023-09-28 06:15","0.0634","0.06337","0.06346","0.06331","8995.13","570.441"
"2023-09-28 08:35","0.06384","0.06388","0.06398","0.06384","2260.53","144.509"
"2023-09-28 10:55","0.06303","0.06285","0.06316","0.06272","55580.7","3500.57"
"2023-09-28 13:15","0.06339","0.06328","0.06339","0.06306","26058","1647.71"
"2023-09-28 15:35","0.06254","0.06254","0.06263","0.06251","1797.56","112.489"
"2023-09-28 17:55","0.06268","0.06271","0.06289","0.06268","10392.7","652.297"
"2023-09-28 20:15","0.06298","0.06313","0.06317","0.06293","17586.6","1108.34"
"2023-09-28 22:35","0.05994","0.06002","0.06004","0.05994","3252.99","195.192"
"2023-09-29 00:55","0.06194","0.06173","0.06197","0.06168","45349.387","2805.32"
"2023-09-29 03:15","0.06212","0.06172","0.06214","0.06166","27598.5","1707.85"
"2023-09-29 05:35","0.06155","0.0617","0.06175","0.06155","7153.06","441.189"
"2023-09-29 07:55","0.06057","0.06038","0.06063","0.06034","81952","4955.59"
"2023-09-29 10:15","0.06019","0.06016","0.06019","0.06015","1356.92","81.6493"
"2023-09-29 12:35","0.0599","0.06017","0.06029","0.0599","133630","8019.35"
"2023-09-29 14:55","0.05746","0.0574","0.05747","0.05731","29085.2","1668.52"
"2023-09-29 17:15","0.05744","0.05756","0.05757","0.05744","33498.6","1928.02"
"2023-09-29 19:35","0.05745","0.05733","0.05756","0.05713","160913","9211.83"
"2023-09-29 21:55","0.05757","0.05763","0.05769","0.05757","4705.19","271.236"
"2023-09-30 00:15","0.05788","0.05784","0.05796","0.05784","11625.4","673.507"
"2023-09-30 02:35","0.05779","0.05784","0.05792","0.05779","18125.6","1049.11"
"2023-09-30 04:55","0.05857","0.05855","0.05858","0.05855","2643.23","154.791"
"2023-09-30 07:15","0.05899","0.05904","0.05908","0.05896","11821.3","697.772"
"2023-09-30 09:35","0.05812","0.05809","0.05813","0.05802","28990.6","1682.86"
"2023-09-30 11:55","0.05821","0.05818","0.05825","0.05815","52127.8","3033.22"
"2023-09-30 14:15","0.05769","0.05773","0.05782","0.05766","14942.6","862.868"
"2023-09-30 16:35","0.05729","0.05722","0.0573","0.05713","11735.6","670.834"
"2023-09-30 18:55","0.05711","0.05707","0.05715","0.057","66947.2","3817.59"
"2023-09-30 21:15","0.05667","0.05667","0.05668","0.05667","1458.15","82.6407"
"2023-09-30 23:35","0.05639","0.05661","0.05667","0.05639","26912.123","1521.21"
"2023-10-01 01:55","0.05706","0.05704","0.05706","0.05704","860.4791","49.089"
"2023-10-01 04:15","0.05686","0.05688","0.05688","0.05683","1767.93","100.514"
"2023-10-01 06:35","0.05687","0.05686","0.05689","0.05684","4551.42","258.839"
"2023-10-01 08:55","0.05686","0.05705","0.05705","0.05686","30677.3","1747.68"
"2023-10-01 11:15","0.05782","0.05817","0.05838","0.05775","167696","9732.42"
"2023-10-01 13:35","0.05776","0.05759","0.05785","0.05756","17324","999.622"
"2023-10-01 15:55","0.05807","0.05804","0.05808","0.05802","3120.15","181.098"
"2023-10-01 18:15","0.05848","0.05859","0.0586","0.05848","32230.3","1886.68"
"2023-10-01 20:35","0.0581","0.05797","0.0581","0.0579","58844","3413.11"
"2023-10-01 22:55","0.05863","0.05931","0.05968","0.05863","279937","16553.7"
"2023-10-02 01:15","0.05894","0.05891","0.05894","0.05891","42788.7","2520.99"
"2023-10-02 03:35","0.05934","0.05913","0.05934","0.0591","46851.9","2772.71"
"2023-10-02 05:55","0.0595","0.05925","0.0595","0.0589","439181","25948.7"
"2023-10-02 08:15","0.05922","0.05934","0.05941","0.05912","32635.3","1932.78"
"2023-10-02 10:35","0.05826","0.05826","0.0583","0.05822","1137.49","66.2734"
"2023-10-02 12:55","0.0589","0.05883","0.05897","0.05871","21474.3","1263.43"
"2023-10-02 15:15","0.05799","0.05773","0.05801","0.05762","16899.5","976.426"
"2023-10-02 17:35","0.05774","0.05773","0.05775","0.05773","1341.51","77.4592"
"2023-10-02 19:55","0.05694","0.05695","0.05697","0.05692","2174.72","123.843"
"2023-10-02 22:15","0.05676","0.05681","0.05689","0.05675","9026.482","513.246"
"2023-10-03 00:35","0.05719","0.05703","0.0572","0.05694","21044.3","1200.14"
"2023-10-27 21:55","0.04116","0.04103","0.04116","0.04103","11718.4","480.891"
"2023-10-28 00:15","0.04142","0.04142","0.04142","0.04142","0","0"
"2023-10-28 02:35","0.04144","0.04144","0.04144","0.04144","0","0"
"2023-10-28 04:55","0.04161","0.04161","0.04161","0.04161","0","0"
"2023-10-28 07:15","0.04201","0.042","0.04201","0.042","7582.6","318.506"
"2023-10-28 09:35","0.04225","0.04225","0.04225","0.04225","0","0"
"2023-10-28 11:55","0.04147","0.04147","0.04147","0.04147","2411.34","99.9982"
"2023-10-28 14:15","0.041","0.041","0.041","0.041","899.9999","36.9"
"2023-10-28 16:35","0.04103","0.04113","0.04113","0.04103","34332","1410.02"
"2023-10-28 18:55","0.04111","0.04118","0.04118","0.04111","25588.6","1053.25"
"2023-10-28 21:15","0.04095","0.04095","0.04095","0.04095","0","0"
"2023-10-28 23:35","0.04113","0.04113","0.04113","0.04113","2452.65","100.877"
"2023-10-29 01:55","0.04112","0.04112","0.04112","0.04112","0","0"
"2023-10-29 04:15","0.04096","0.04091","0.04096","0.04091","7844.27","321.037"
"2023-10-29 06:35","0.04116","0.0412","0.0412","0.04116","41465","1707.12"
"2023-10-29 08:55","0.04104","0.04097","0.04104","0.04097","11536.6","472.936"
"2023-10-29 11:15","0.04098","0.04098","0.04098","0.04098","0","0"
"2023-10-29 13:35","0.04091","0.04095","0.04095","0.0409","40481.5","1656.81"
"2023-10-29 15:55","0.04106","0.0411","0.0411","0.04106","3702.74","152.084"
"2023-10-29 18:15","0.04144","0.04192","0.04196","0.04144","219255","9146.92"
"2023-10-29 20:35","0.042","0.04201","0.04201","0.04197","11985.2","503.191"
"2023-10-29 22:55","0.04281","0.04281","0.04281","0.04281","0","0"
"2023-10-30 01:15","0.04298","0.04298","0.04298","0.04298","148.0959","6.36516"
"2023-10-30 03:35","0.04199","0.04199","0.04199","0.04199","65","2.72935"
"2023-10-30 05:55","0.04181","0.04181","0.04181","0.04181","10495.6","438.819"
"2023-10-30 08:15","0.04122","0.04124","0.04124","0.04122","3460","142.6354"
"2023-10-30 10:35","0.0417","0.0417","0.04175","0.04164","22444.2","935.899"
"2023-10-30 12:55","0.04137","0.04137","0.04137","0.04137","0","0"
"2023-10-30 15:15","0.04172","0.04172","0.04172","0.04172","0","0"
"2023-10-30 17:35","0.04171","0.04171","0.04171","0.04171","710","29.6141"
"2023-10-30 19:55","0.04201","0.042","0.04202","0.042","40572.8","1704.35"
"2023-10-30 22:15","0.04134","0.04136","0.04143","0.04134","21848.7","903.749"
"2023-10-31 00:35","0.04167","0.0417","0.0417","0.04167","16590.9","691.674"
"2023-10-31 02:55","0.04145","0.04145","0.04145","0.04145","2564.176","106.285"
"2023-10-31 05:15","0.04133","0.04133","0.04133","0.04133","0","0"
"2023-10-31 07:35","0.04231","0.04231","0.04231","0.04231","0","0"
"2023-10-31 09:55","0.04316","0.04316","0.04316","0.04316","0","0"
"2023-10-31 12:15","0.04242","0.04233","0.04243","0.04233","5487.24","232.348"
"2023-10-31 14:35","0.04187","0.04187","0.04187","0.04187","2031.34","85.0522"
"2023-10-31 16:55","0.04201","0.04201","0.04201","0.04201","0","0"
"2023-10-31 19:15","0.04246","0.04243","0.04246","0.04243","3357.086","142.522"
"2023-10-31 21:35","0.04251","0.04244","0.04251","0.04244","135987","5771.36"
"2023-10-31 23:55","0.04261","0.04263","0.04263","0.04261","6814.68","290.45"
"2023-11-01 02:15","0.04232","0.04232","0.04232","0.04232","47.2589","2"
"2023-11-01 04:35","0.04134","0.04134","0.04134","0.04134","0","0"
"2023-11-01 06:55","0.04148","0.04148","0.04148","0.04148","0","0"
"2023-11-01 09:15","0.04146","0.0415","0.04154","0.04143","108724","4511.92"
"2023-11-01 11:35","0.04123","0.04127","0.04127","0.04123","352.5679","14.5458"
"2023-11-01 13:55","0.04066","0.0406","0.04066","0.0406","8920.86","362.459"
"2023-11-01 16:15","0.0407","0.0407","0.0407","0.0407","0","0"
"2023-11-01 18:35","0.04029","0.04041","0.04041","0.04029","17140.6","690.746"
"2023-11-01 20:55","0.04149","0.04146","0.04162","0.0414","225899","9390.14"
"2023-11-01 23:15","0.04204","0.04242","0.04253","0.04204","119415","5060.79"
"2023-11-02 01:35","0.04201","0.04189","0.04201","0.04189","11937.9","500.637"
"2023-11-26 22:55","0.05373","0.05394","0.05394","0.05373","47399.9","2554.45"
"2023-11-27 01:15","0.05404","0.05409","0.05415","0.05404","49137.6","2659.8"
"2023-11-27 03:35","0.05427","0.05427","0.05432","0.05427","9162.45","497.312"
"2023-11-27 05:55","0.05362","0.05353","0.05362","0.05353","10255.4","549.244"
"2023-11-27 08:15","0.05225","0.05225","0.05225","0.05225","975","50.94375"
"2023-11-27 10:35","0.05163","0.0516","0.05163","0.0516","45956.4","2371.8"
"2023-11-27 12:55","0.05058","0.05048","0.0506","0.05016","253400","12790.3"
"2023-11-27 15:15","0.04985","0.05009","0.05022","0.04984","41308.4","2066.58"
"2023-11-27 17:35","0.05123","0.05126","0.05127","0.05123","6790.5","348.007"
"2023-11-27 19:55","0.05109","0.05109","0.05109","0.05109","1378.32","70.4185"
"2023-11-27 22:15","0.05077","0.05087","0.05087","0.05077","4935.84","250.61"
"2023-11-28 00:35","0.0513","0.05139","0.05147","0.05122","36278","1860.28"
"2023-11-28 02:55","0.05092","0.05089","0.05092","0.05089","55809.4","2840.25"
"2023-11-28 05:15","0.04991","0.04971","0.04991","0.0496","276631","13750.4"
"2023-11-28 07:35","0.04972","0.04972","0.04972","0.04972","0","0"
"2023-11-28 09:55","0.05043","0.05043","0.05043","0.05043","588.6924","29.6878"
"2023-11-28 12:15","0.05173","0.052","0.052","0.05173","157824","8198.57"
"2023-11-28 14:35","0.05319","0.05356","0.05356","0.05306","49399.1","2627.8"
"2023-11-28 16:55","0.05297","0.05308","0.05308","0.05297","141296","7498.54"
"2023-11-28 19:15","0.05176","0.05181","0.05184","0.05172","39997.456","2071.43"
"2023-11-28 21:35","0.05065","0.05051","0.0507","0.05046","89886.2","4549.12"
"2023-11-28 23:55","0.05078","0.05086","0.05087","0.05076","14286.8","725.378"
"2023-11-29 02:15","0.05091","0.05108","0.05118","0.05075","168096","8573.23"
"2023-11-29 04:35","0.0513","0.05117","0.0513","0.05112","173451","8880.5"
"2023-11-29 06:55","0.05162","0.05152","0.05163","0.05152","6223.07","320.658"
"2023-11-29 09:15","0.05124","0.05124","0.05124","0.05124","0","0"
"2023-11-29 11:35","0.05082","0.05082","0.05082","0.05082","0","0"
"2023-11-29 13:55","0.05117","0.05121","0.05126","0.05103","129090.554","6602.45"
"2023-11-29 16:15","0.05371","0.05355","0.05371","0.05336","61563.7","3293.42"
"2023-11-29 18:35","0.05509","0.05488","0.05519","0.05471","183628","10087.8"
"2023-11-29 20:55","0.05501","0.0552","0.0552","0.055","7905.06","435.593"
"2023-11-29 23:15","0.05611","0.05625","0.05625","0.05606","23182.9","1300.74"
"2023-11-30 01:35","0.05582","0.05582","0.05585","0.05559","45286","2523"
"2023-11-30 03:55","0.05529","0.05533","0.05551","0.05529","139700","7740.11"
"2023-11-30 06:15","0.05473","0.05473","0.05473","0.05473","3394.6","185.786"
"2023-11-30 08:35","0.05489","0.05522","0.05522","0.05489","56567","3114.58"
"2023-11-30 10:55","0.05531","0.05539","0.05539","0.05531","4202.47","232.67"
"2023-11-30 13:15","0.05419","0.0542","0.05421","0.05419","6808.86","369.044"
"2023-11-30 15:35","0.05345","0.05345","0.05345","0.05345","0","0"
"2023-11-30 17:55","0.05269","0.05269","0.05269","0.05269","0","0"
"2023-11-30 20:15","0.05211","0.05218","0.05223","0.05211","8486.702","442.822"
"2023-11-30 22:35","0.05239","0.0522","0.0524","0.0522","23294.9","1216.37"
"2023-12-01 00:55","0.05295","0.05292","0.053","0.05292","56751.5","3007.57"
"2023-12-01 03:15","0.05396","0.05393","0.054","0.05393","23424","1264.18"
"2023-12-01 05:35","0.0532","0.0532","0.0532","0.0532","0","0"
"2023-12-01 07:55","0.05247","0.05248","0.05248","0.05244","2198.94","115.365"
"2023-12-01 10:15","0.05311","0.05278","0.0532","0.05278","63478.9","3364.49"
"2023-12-01 12:35","0.05475","0.055","0.055","0.05475","54548.8","2994.6"
"2023-12-01 14:55","0.05326","0.05331","0.05331","0.05326","2157.41","114.934"
"2023-12-01 17:15","0.05326","0.0534","0.0534","0.05326","13337.5","711.414"
"2023-12-01 19:35","0.05272","0.05276","0.05288","0.0527","19852.1","1047.65"
"2023-12-01 21:55","0.05257","0.0531","0.0531","0.05257","188816","9995.37"
"2023-12-02 00:15","0.05438","0.05454","0.05454","0.05432","7614.873","414.625"
"2023-12-02 02:35","0.05484","0.05481","0.05485","0.05481","1252.01","68.6495"
"2023-12-26 23:55","0.04479","0.04474","0.04486","0.04474","8559.86","383.32"
"2023-12-27 02:15","0.04497","0.04503","0.04515","0.04448","527951","23668.3"
"2023-12-27 04:35","0.04436","0.04427","0.04436","0.04409","185546","8205.13"
"2023-12-27 06:55","0.04569","0.04575","0.04575","0.04569","21849","998.572"
"2023-12-27 09:15","0.04517","0.04532","0.04536","0.04512","19780.8","894.711"
"2023-12-27 11:35","0.04608","0.04621","0.04621","0.04596","21214.9","977.965"
"2023-12-27 13:55","0.04529","0.04537","0.04552","0.04521","54704.3","2480.92"
"2023-12-27 16:15","0.04586","0.04559","0.04594","0.04544","206412","9425.87"
"2023-12-27 18:35","0.04587","0.04572","0.04611","0.04565","229198","10524.5"
"2023-12-27 20:55","0.04669","0.04673","0.0469","0.04663","70444.1","3299.6"
"2023-12-27 23:15","0.04749","0.04718","0.04749","0.04688","99398.1","4691.68"
"2023-12-28 01:35","0.04824","0.04799","0.04841","0.04789","202448","9739.62"
"2023-12-28 03:55","0.0476","0.04745","0.04789","0.04735","375862","17894"
"2023-12-28 06:15","0.04839","0.04811","0.0484","0.04782","222572.427","10698.7"
"2023-12-28 08:35","0.04764","0.04757","0.04771","0.0473","210057","9981.09"
"2023-12-28 10:55","0.04715","0.04698","0.04719","0.04698","19860","936.084"
"2023-12-28 13:15","0.04609","0.04638","0.0464","0.04602","157948","7309.15"
"2023-12-28 15:35","0.0454","0.0459","0.0459","0.04539","187141","8541.95"
"2023-12-28 17:55","0.04573","0.04591","0.04592","0.04566","69376","3176.39"
"2023-12-28 20:15","0.04503","0.04511","0.04511","0.04501","19218.4","866.381"
"2023-12-28 22:35","0.04536","0.04555","0.04555","0.04536","20444.9","929.654"
"2023-12-29 00:55","0.04513","0.04486","0.04525","0.04486","83223.2","3741.97"
"2023-12-29 03:15","0.04556","0.04556","0.04556","0.04556","8556.65","389.841"
"2023-12-29 05:35","0.04631","0.04655","0.04655","0.04631","44737.1","2078.4"
"2023-12-29 07:55","0.04534","0.04534","0.04534","0.04534","103.0167","4.67078"
"2023-12-29 10:15","0.04575","0.04579","0.04579","0.04575","42810.4","1959.68"
"2023-12-29 12:35","0.04486","0.04494","0.04494","0.04474","110530","4955.28"
"2023-12-29 14:55","0.04491","0.04493","0.04493","0.04491","11414.5","512.798"
"2023-12-29 17:15","0.04417","0.044","0.04434","0.044","285542","12583.3"
"2023-12-29 19:35","0.04456","0.04456","0.04456","0.04435","72054.4","3201.83"
"2023-12-29 21:55","0.04446","0.04438","0.04447","0.04432","107298","4764.51"
"2023-12-30 00:15","0.0446","0.0446","0.0446","0.0446","0","0"
"2023-12-30 02:35","0.04465","0.04465","0.04465","0.04465","1117.818","49.9106"
"2023-12-30 04:55","0.04444","0.04444","0.04445","0.04436","30536.8","1355.67"
"2023-12-30 07:15","0.04415","0.04438","0.04449","0.04403","181737","8046.85"
"2023-12-30 09:35","0.04422","0.04422","0.04422","0.04422","5648.29","249.768"
"2023-12-30 11:55","0.04356","0.04365","0.04365","0.04356","22200.2","968.672"
"2023-12-30 14:15","0.0438","0.04396","0.04396","0.0438","54422.3","2386.91"
"2023-12-30 16:35","0.0442","0.0442","0.0442","0.0442","1092.49","48.288"
"2023-12-30 18:55","0.04331","0.04335","0.04335","0.0432","21043.2","910.575"
"2023-12-30 21:15","0.04341","0.04355","0.04358","0.04341","185205","8057.49"
"2023-12-30 23:35","0.04301","0.0429","0.04304","0.04272","29500.1","1265.93"
"2023-12-31 01:55","0.04274","0.04249","0.04276","0.04249","46619.4","1988.43"
"2023-12-31 04:15","0.04216","0.04216","0.04216","0.04216","1407.38","59.3352"
"2023-12-31 06:35","0.04223","0.04153","0.04223","0.041","1.00463e+06","41569.6"
"2023-12-31 08:55","0.04179","0.04195","0.04195","0.04179","20340.3","852.88"
"2023-12-31 11:15","0.04249","0.04252","0.04252","0.04246","12555.9","533.468"
"2023-12-31 13:35","0.04176","0.04186","0.04193","0.04176","121809","5094.65"
"2023-12-31 15:55","0.04298","0.04298","0.04298","0.04298","0","0"
"2023-12-31 18:15","0.04247","0.04246","0.04251","0.04235","29260.4","1241.17"
"2023-12-31 20:35","0.04268","0.04268","0.04268","0.04268","1853.9","79.1244"
"2023-12-31 22:55","0.04096","0.0412","0.0412","0.04096","25190.7","1034.74"
"2024-01-01 01:15","0.04169","0.04168","0.04169","0.04165","3791.5","157.976"
"2024-01-25 22:35","0.04007","0.04007","0.04007","0.04007","0","0"
"2024-01-26 00:55","0.04011","0.04009","0.04011","0.04003","33167.8","1328.6"
"2024-01-26 03:15","0.04069","0.04069","0.04069","0.04069","1565.67","63.7073"
"2024-01-26 05:35","0.04056","0.04056","0.04056","0.04056","2440.78","98.998"
"2024-01-26 07:55","0.04033","0.04035","0.04035","0.04033","7657.04","308.859"
"2024-01-26 10:15","0.04011","0.04014","0.04015","0.0401","20710.7","831.178"
"2024-01-26 12:35","0.04117","0.0412","0.04128","0.04117","44791.5","1846.43"
"2024-01-26 14:55","0.04137","0.04148","0.04148","0.04137","11740.9","486.285"
"2024-01-26 17:15","0.04214","0.04196","0.0422","0.0419","191037.735","8035.85"
"2024-01-26 19:35","0.04269","0.04267","0.04269","0.04267","25765.8","1099.52"
"2024-01-26 21:55","0.04273","0.04274","0.04279","0.04273","22425","959.057"
"2024-01-27 00:15","0.04315","0.04314","0.04315","0.04314","502.2092","21.6699"
"2024-01-27 02:35","0.04299","0.04297","0.04299","0.04297","1059.31","45.5231"
"2024-01-27 04:55","0.0441","0.04417","0.04417","0.04406","21788.9","960.792"
"2024-01-27 07:15","0.04346","0.0434","0.04346","0.0434","38556.3","1674.26"
"2024-01-27 09:35","0.04311","0.04336","0.04341","0.04304","266462","11524.5"
"2024-01-27 11:55","0.04426","0.04411","0.04426","0.04405","37182.4","1641.42"
"2024-01-27 14:15","0.04339","0.04339","0.04339","0.04339","185.0149","8.0278"
"2024-01-27 16:35","0.04385","0.04329","0.04385","0.04323","354062","15441.6"
"2024-01-27 18:55","0.04274","0.04273","0.04274","0.04273","360.8937","15.4223"
"2024-01-27 21:15","0.04298","0.04299","0.04299","0.04296","239571","10292.2"
"2024-01-27 23:35","0.04262","0.0426","0.04262","0.04259","9060.93","386.154"
"2024-01-28 01:55","0.04319","0.04319","0.04319","0.04319","7009.04","302.72"
"2024-01-28 04:15","0.04294","0.04302","0.04307","0.04294","23584.6","1014.21"
"2024-01-28 06:35","0.04388","0.04387","0.04388","0.04384","25180.1","1104.33"
"2024-01-28 08:55","0.04334","0.04334","0.04334","0.04334","0","0"
"2024-01-28 11:15","0.04278","0.04251","0.04278","0.04249","329488","14059.4"
"2024-01-28 13:35","0.04187","0.04194","0.04194","0.04187","15109.5","633.425"
"2024-01-28 15:55","0.04172","0.04181","0.04181","0.04172","20423.1","853.62"
"2024-01-28 18:15","0.04134","0.04122","0.04134","0.04122","5347.92","220.789"
"2024-01-28 20:35","0.04126","0.04138","0.04138","0.04121","83657.046","3452.5"
"2024-01-28 22:55","0.04119","0.04121","0.04121","0.04119","2211.81","91.1202"
"2024-01-29 01:15","0.04123","0.04112","0.04123","0.04112","77033","3170.97"
"2024-01-29 03:35","0.04127","0.04126","0.04127","0.04126","8517.383","351.48"
"2024-01-29 05:55","0.04237","0.04237","0.04237","0.04237","4448.51","188.483"
"2024-01-29 08:15","0.04118","0.04114","0.04118","0.04114","12665.2","521.488"
"2024-01-29 10:35","0.04268","0.04271","0.04272","0.04268","11155.3","476.4"
"2024-01-29 12:55","0.04207","0.04216","0.04216","0.04207","17891.1","753.51"
"2024-01-29 15:15","0.04235","0.04235","0.04237","0.0423","53705.813","2273.57"
"2024-01-29 17:35","0.04285","0.04285","0.0429","0.04284","31090.9","1333.08"
"2024-01-29 19:55","0.0425","0.04251","0.04251","0.0425","113289.753","4814.96"
"2024-01-29 22:15","0.04257","0.04257","0.04257","0.04257","469.8144","20"
"2024-01-30 00:35","0.04167","0.0416","0.0417","0.04152","18230.5","758.464"
"2024-01-30 02:55","0.04179","0.04179","0.04179","0.04179","0","0"
"2024-01-30 05:15","0.04122","0.04273","0.0435","0.04122","1.4232e+06","60665.1"
"2024-01-30 07:35","0.04179","0.04183","0.04183","0.04174","40481.2","1692.03"
"2024-01-30 09:55","0.0416","0.04159","0.0416","0.04159","3889.13","161.761"
"2024-01-30 12:15","0.042","0.04203","0.04204","0.042","65890.6","2769.26"
"2024-01-30 14:35","0.04174","0.04174","0.04174","0.04174","3000","125.22"
"2024-01-30 16:55","0.04143","0.04138","0.04143","0.04136","2839.48","117.599"
"2024-01-30 19:15","0.04141","0.04143","0.04156","0.04141","92448.2","3835.61"
"2024-01-30 21:35","0.04142","0.04142","0.04142","0.04142","0","0"
"2024-01-30 23:55","0.04061","0.04065","0.04065","0.04061","6641.32","269.764"
"2024-01-31 02:15","0.04055","0.04038","0.04055","0.04025","232061.952","9375.1"
"2024-02-24 23:35","0.0456","0.04571","0.04571","0.0456","58512.5","2671.29"
"2024-02-25 01:55","0.04599","0.04601","0.04601","0.04597","4528.34","208.283"
"2024-02-25 04:15","0.04598","0.04598","0.04598","0.04598","4082.3","187.704"
"2024-02-25 06:35","0.04623","0.04618","0.04625","0.04617","15789.2","729.609"
"2024-02-25 08:55","0.0474","0.04742","0.04743","0.04736","91339.8","4327.85"
"2024-02-25 11:15","0.04655","0.04645","0.04661","0.04645","122471","5694.68"
"2024-02-25 13:35","0.04696","0.04693","0.04696","0.04692","12699.3","596.289"
"2024-02-25 15:55","0.04765","0.04751","0.04765","0.04747","58681.9","2790.2"
"2024-02-25 18:15","0.04683","0.04687","0.04687","0.04682","15827.099","741.747"
"2024-02-25 20:35","0.04719","0.04727","0.04734","0.04712","78819","3721.41"
"2024-02-25 22:55","0.04717","0.04707","0.04717","0.04707","32595.1","1536.02"
"2024-02-26 01:15","0.04716","0.0471","0.04716","0.0471","28344.6","1336.05"
"2024-02-26 03:35","0.0473","0.0473","0.04731","0.04725","15672.7","740.905"
"2024-02-26 05:55","0.04718","0.04712","0.04718","0.04712","2407.616","113.513"
"2024-02-26 08:15","0.04652","0.04653","0.04653","0.0464","54106.6","2513.44"
"2024-02-26 10:35","0.04557","0.04558","0.04571","0.04543","50138","2284.66"
"2024-02-26 12:55","0.04564","0.04568","0.04568","0.04564","20000","913.1565"
"2024-02-26 15:15","0.04655","0.0467","0.04672","0.04654","153742.99","7173.81"
"2024-02-26 17:35","0.0472","0.0471","0.04721","0.04703","71467.9","3366.36"
"2024-02-26 19:55","0.04693","0.04692","0.04695","0.04685","68997.274","3236.83"
"2024-02-26 22:15","0.04728","0.04726","0.04732","0.04724","30016.4","1418.58"
"2024-02-27 00:35","0.04791","0.04785","0.04791","0.04778","46957.3","2246.23"
"2024-02-27 02:55","0.04784","0.04788","0.0479","0.04779","23836.1","1140.51"
"2024-02-27 05:15","0.04874","0.04863","0.04876","0.04843","137516","6683.44"
"2024-02-27 07:35","0.0486","0.04886","0.04886","0.0486","51035","2483.9"
"2024-02-27 09:55","0.04896","0.04903","0.04905","0.04893","20241.7","991.742"
"2024-02-27 12:15","0.04882","0.04887","0.04891","0.04882","62944.4","3075.87"
"2024-02-27 14:35","0.04793","0.04771","0.04793","0.04769","99589.3","4759.42"
"2024-02-27 16:55","0.04697","0.04698","0.047","0.04697","15631.2","734.403"
"2024-02-27 19:15","0.04701","0.047","0.04705","0.04696","7521.27","353.419"
"2024-02-27 21:35","0.04689","0.04686","0.04689","0.04683","13994.4","655.658"
"2024-02-27 23:55","0.04658","0.04658","0.04658","0.04658","3253.26","151.537"
"2024-02-28 02:15","0.04696","0.04694","0.04697","0.04689","25389.2","1191.63"
"2024-02-28 04:35","0.04691","0.0468","0.04691","0.0468","22577.8","1058.12"
"2024-02-28 06:55","0.04662","0.04661","0.04662","0.04661","2155.969","100.502"
"2024-02-28 09:15","0.04675","0.04677","0.0468","0.04674","4704.74","220.032"
"2024-02-28 11:35","0.04738","0.04736","0.0475","0.04716","104980","4966.1"
"2024-02-28 13:55","0.04719","0.04724","0.04725","0.04715","14225.4","671.346"
"2024-02-28 16:15","0.04518","0.04569","0.046","0.04518","558578","25523"
"2024-02-28 18:35","0.04421","0.04403","0.04421","0.04392","10810.4","476.067"
"2024-02-28 20:55","0.04501","0.04426","0.04501","0.04409","515606","22964.2"
"2024-02-28 23:15","0.04393","0.04408","0.04415","0.04391","151578","6680.32"
"2024-02-29 01:35","0.04499","0.04499","0.04501","0.04495","16479.982","741.516"
"2024-02-29 03:55","0.04451","0.04428","0.04454","0.04425","512474","22748.9"
"2024-02-29 06:15","0.04601","0.04639","0.04662","0.04598","329048","15239.8"
"2024-02-29 08:35","0.04486","0.04505","0.04517","0.04486","354423","15960"
"2024-02-29 10:55","0.04438","0.04432","0.0444","0.04409","90475.9","4007.62"
"2024-02-29 13:15","0.04508","0.04523","0.04528","0.04502","196903","8892.68"
"2024-02-29 15:35","0.04546","0.04518","0.04546","0.04518","46182.8","2091.16"
"2024-02-29 17:55","0.04469","0.04485","0.0449","0.04457","117152","5237.86"
"2024-02-29 20:15","0.04514","0.04515","0.04518","0.04514","10917.9","493.091"
"2024-02-29 22:35","0.04399","0.04373","0.04406","0.0436","132677","5800.31"
"2024-03-01 00:55","0.04406","0.04412","0.04415","0.04404","59284.2","2614.61"
"2024-03-01 02:50","0.04455","0.0446","0.0446","0.04455","7679.18","342.245"